Folder: tradeX/data/historical_price

Note: README.md
# tradeX

This project contains:
1. crawling raw data (balance sheet, income statement, cash flow statement, historical price) from nasdaq.com;
2. parsing raw data into processed data;
3. getting statistics from processed data;
4. using processed data as dataset to train models;

The order of running codes is:
./crawler/balance_sheet_crawler.py
./crawler/income_statement_crawler.py
./crawler/cash_flow_statement_crawler.py
./crawler/historical_price_crawler.py

./parser/balance_sheet_parser.py
./parser/income_statement_parser.py
./parser/cash_flow_statement_parser.py
./parser/combined_intersection.py
./parser/combined_union.py

./statistics/balance_sheet_filtered_data_statistics.py
./statistics/income_statement_filtered_data_statistics.py
./statistics/cash_flow_statement_filtered_data_statistics.py

./model/balance_sheet_filtered_data_neural.py
./model/income_statement_filtered_data_neural.py
./model/cash_flow_statement_filtered_data_neural.py
./model/combined_filtered_data_intersection_neural.py
./model/combined_filtered_data_union_neural.py
./model/combined_filtered_data_union_neural_lstm.py

File: TGA.csv
Date, Close/Last, Volume, Open, High, Low
01/20/2021, $1.13, 893907, $1.16, $1.18, $1.08
12/31/2020, $0.9614, 402411, $0.96, $0.9758, $0.9167
12/14/2020, $0.9272, 721077, $0.9897, $1.05, $0.906
11/25/2020, $0.5346, 736982, $0.5, $0.5347, $0.5
11/09/2020, $0.42, 1091546, $0.4298, $0.455, $0.39
10/22/2020, $0.446, 3116283, $0.4468, $0.5348, $0.4101
10/06/2020, $0.398, 248146, $0.3999, $0.4182, $0.3851
09/18/2020, $0.4173, 385561, $0.4458, $0.4496, $0.4
09/01/2020, $0.54, 117571, $0.5461, $0.5494, $0.5273
08/14/2020, $0.587, 82333, $0.6, $0.6, $0.581
07/29/2020, $0.59, 113774, $0.5851, $0.5999, $0.5751
07/13/2020, $0.6036, 92416, $0.59, $0.6127, $0.59
06/24/2020, $0.5768, 87143, $0.54, $0.6122, $0.54
06/08/2020, $0.71, 521137, $0.704, $0.75, $0.66
05/20/2020, $0.5446, 177186, $0.5302, $0.5446, $0.5
05/04/2020, $0.55, 134093, $0.565, $0.65, $0.53
04/16/2020, $0.405, 84737, $0.4317, $0.4699, $0.381
03/30/2020, $0.36, 196790, $0.4091, $0.4091, $0.3501
03/12/2020, $0.5563, 446419, $0.5, $0.6, $0.49
02/25/2020, $1.18, 165496, $1.21, $1.23, $1.16
02/06/2020, $1.3, 38469, $1.28, $1.31, $1.24
01/21/2020, $1.34, 116699, $1.41, $1.41, $1.32
01/02/2020, $1.46, 125664, $1.4, $1.48, $1.3703
12/13/2019, $1.27, 183118, $1.23, $1.3, $1.23
11/26/2019, $1.16, 118705, $1.15, $1.17, $1.1287
11/08/2019, $1.23, 72412, $1.23, $1.24, $1.2
10/23/2019, $1.23, 134122, $1.24, $1.27, $1.22
10/07/2019, $1.32, 33337, $1.31, $1.33, $1.31
09/19/2019, $1.47, 76552, $1.44, $1.49, $1.44
09/03/2019, $1.33, 85877, $1.33, $1.33, $1.29
08/15/2019, $1.44, 149128, $1.43, $1.45, $1.4
07/30/2019, $1.48, 180041, $1.39, $1.49, $1.36
07/12/2019, $1.465, 100780, $1.47, $1.48, $1.45
06/25/2019, $1.4, 212954, $1.39, $1.42, $1.38
06/07/2019, $1.55, 81626, $1.51, $1.55, $1.51
05/21/2019, $1.67, 117439, $1.68, $1.72, $1.66
05/03/2019, $1.88, 164531, $1.9, $1.9, $1.84
04/16/2019, $1.86, 67529, $1.86, $1.8867, $1.84
03/29/2019, $1.89, 83034, $1.87, $1.95, $1.86
03/13/2019, $2.08, 93920, $2.11, $2.16, $2.06
02/25/2019, $2.04, 52111, $2.07, $2.089, $2.02
02/06/2019, $1.93, 42417, $1.91, $1.96, $1.88
01/18/2019, $1.89, 166542, $1.94, $1.94, $1.84
01/02/2019, $1.8, 271316, $1.86, $1.94, $1.77
12/13/2018, $1.86, 146834, $1.89, $1.915, $1.83
11/26/2018, $2.17, 263692, $2.14, $2.21, $2.14
11/07/2018, $2.41, 118404, $2.4, $2.51, $2.37
10/22/2018, $2.59, 1288423, $2.97, $3, $2.55
10/04/2018, $3.32, 681829, $3.45, $3.47, $3.28
09/18/2018, $3.39, 365320, $3.56, $3.59, $3.3668
08/30/2018, $3.39, 311118, $3.45, $3.61, $3.35
08/14/2018, $3.14, 2481712, $3.19, $3.5, $2.95
07/27/2018, $3.18, 540226, $3.36, $3.36, $3.135
07/11/2018, $3.76, 2036608, $3.4, $3.92, $3.33
06/22/2018, $2.39, 528325, $2.34, $2.465, $2.2999
06/06/2018, $2.46, 265957, $2.37, $2.47, $2.3417
05/18/2018, $2.23, 529747, $2.17, $2.27, $2.055
05/02/2018, $1.865, 179314, $1.84, $1.9266, $1.83
04/16/2018, $1.4, 42231, $1.35, $1.4, $1.35
03/28/2018, $1.32, 39364, $1.333, $1.35, $1.31
03/12/2018, $1.309, 47422, $1.28, $1.32, $1.28
02/22/2018, $1.3, 77269, $1.299, $1.34, $1.28
02/05/2018, $1.41, 105792, $1.43, $1.43, $1.35
01/18/2018, $1.47, 59235, $1.45, $1.49, $1.44
12/29/2017, $1.439, 57584, $1.43, $1.44, $1.411
12/12/2017, $1.38, 39684, $1.36, $1.4, $1.36
11/24/2017, $1.5, 2674, $1.46, $1.5001, $1.46
11/07/2017, $1.57, 56350, $1.53, $1.57, $1.48
10/20/2017, $1.58, 28926, $1.58, $1.59, $1.53
10/04/2017, $1.44, 47707, $1.42, $1.45, $1.4
09/18/2017, $1.12, 289087, $1.1, $1.17, $1.09
08/30/2017, $1.2575, 23596, $1.28, $1.28, $1.25
08/14/2017, $1.18, 100493, $1.2, $1.21, $1.16
07/27/2017, $1.33, 28393, $1.34, $1.36, $1.33
07/11/2017, $1.27, 24742, $1.27, $1.29, $1.26
06/22/2017, $1.28, 28257, $1.27, $1.29, $1.25
06/06/2017, $1.41, 151708, $1.4, $1.43, $1.38
05/18/2017, $1.6, 34075, $1.54, $1.6, $1.53
05/02/2017, $1.45, 54630, $1.48, $1.49, $1.45
04/13/2017, $1.57, 58751, $1.65, $1.65, $1.57
03/28/2017, $1.54, 59981, $1.5, $1.56, $1.49
03/10/2017, $1.64, 46950, $1.604, $1.64, $1.59
02/22/2017, $1.7, 117978, $1.77, $1.7793, $1.7
02/03/2017, $1.72, 52463, $1.73, $1.78, $1.72
01/18/2017, $1.72, 35401, $1.78, $1.78, $1.72
12/29/2016, $1.68, 56615, $1.69, $1.72, $1.68
12/12/2016, $1.77, 282802, $1.78, $1.89, $1.76
11/23/2016, $1.78, 47504, $1.77, $1.82, $1.7262
11/07/2016, $1.81, 42166, $1.8, $1.89, $1.781
10/20/2016, $2.05, 17124, $2.05, $2.09, $2.04
10/04/2016, $2, 111012, $1.973, $2.061, $1.96
09/16/2016, $1.93, 58359, $1.93, $1.95, $1.88
08/30/2016, $1.87, 43897, $1.81, $1.9, $1.81
08/12/2016, $1.92, 148750, $2, $2.03, $1.87
07/27/2016, $1.63, 31108, $1.72, $1.72, $1.6
07/11/2016, $1.69, 41357, $1.8, $1.8, $1.69
06/22/2016, $1.83, 116055, $1.72, $1.89, $1.72
06/06/2016, $1.73, 82282, $1.75, $1.7625, $1.7
05/18/2016, $1.86, 74402, $1.92, $1.96, $1.8
05/02/2016, $1.935, 45850, $1.92, $1.95, $1.89
04/14/2016, $1.76, 48353, $1.8, $1.8, $1.75
03/29/2016, $1.63, 113449, $1.62, $1.63, $1.59
03/10/2016, $1.69, 130381, $1.57, $1.71, $1.57
02/23/2016, $1.31, 88995, $1.42, $1.42, $1.3
02/04/2016, $1.31, 151994, $1.28, $1.36, $1.27
01/19/2016, $1.12, 442963, $1.22, $1.22, $1.1
12/30/2015, $1.78, 171806, $1.71, $1.79, $1.7
12/11/2015, $1.66, 109801, $1.67, $1.71, $1.64
11/24/2015, $2.09, 161794, $2.05, $2.12, $2
11/06/2015, $2.72, 57135, $2.72, $2.75, $2.69
10/21/2015, $2.65, 63239, $2.72, $2.74, $2.62
10/05/2015, $2.82, 94709, $2.84, $2.94, $2.81
09/17/2015, $2.85, 76430, $2.86, $2.93, $2.81
08/31/2015, $3.41, 273075, $3.21, $3.46, $3.1
08/13/2015, $2.96, 253024, $3.09, $3.11, $2.9
07/28/2015, $2.88, 153913, $2.83, $2.95, $2.81
07/10/2015, $3.62, 130815, $3.76, $3.81, $3.615
06/23/2015, $4.07, 560622, $3.72, $4.18, $3.72
06/05/2015, $4.08, 91420, $3.96, $4.1, $3.94
05/19/2015, $4.07, 378495, $4.1, $4.1, $3.93
05/01/2015, $4.64, 299118, $4.57, $4.66, $4.42
04/15/2015, $4.29, 391485, $4.07, $4.41, $4.05
03/27/2015, $3.55, 435383, $3.45, $3.62, $3.41
03/11/2015, $2.98, 174404, $2.88, $3.015, $2.88
02/23/2015, $2.94, 336710, $2.97, $3.01, $2.89
02/04/2015, $3.07, 277830, $3.26, $3.26, $2.95
01/16/2015, $3.03, 957690, $2.76, $3.07, $2.76
12/30/2014, $3.78, 249374, $3.66, $3.8, $3.58
12/11/2014, $2.93, 457270, $3.01, $3.12, $2.88
11/24/2014, $3.82, 227212, $4.08, $4.08, $3.73
11/06/2014, $4.16, 189505, $3.97, $4.19, $3.94
10/21/2014, $4.94, 328009, $4.96, $5.08, $4.93
10/03/2014, $5.55, 224827, $5.65, $5.74, $5.5
09/17/2014, $6.5, 78057, $6.57, $6.61, $6.48
08/29/2014, $6.78, 157692, $6.77, $6.815, $6.71
08/13/2014, $6.51, 421503, $6, $6.58, $6
07/28/2014, $6.68, 157790, $6.69, $6.7, $6.58
07/10/2014, $6.94, 123529, $7.03, $7.05, $6.86
06/23/2014, $7.48, 197322, $7.59, $7.65, $7.43
06/05/2014, $7.03, 58516, $6.94, $7.08, $6.84
05/19/2014, $6.59, 79130, $6.49, $7.018, $6.49
05/01/2014, $7.65, 71316, $7.77, $7.9488, $7.57
04/14/2014, $7.42, 234976, $7.39, $7.51, $7.35
03/27/2014, $7.61, 196918, $7.33, $7.71, $7.32
03/11/2014, $7.54, 105884, $7.72, $7.78, $7.53
02/21/2014, $7.36, 117643, $7.15, $7.4, $7.09
02/04/2014, $6.78, 472036, $6.87, $7.28, $6.33
01/16/2014, $8.52, 122353, $8.64, $8.65, $8.34
12/30/2013, $8.28, 103381, $8.32, $8.39, $8.22
12/11/2013, $8.62, 172409, $8.88, $8.92, $8.56
11/22/2013, $8.82, 50130, $8.92, $8.92, $8.68
11/06/2013, $9.19, 174320, $9.59, $9.59, $9.1
10/21/2013, $9.29, 336918, $9.5, $9.5, $9.24
10/03/2013, $8.52, 193923, $8.12, $8.54, $8.07
09/17/2013, $7.87, 224916, $7.7, $7.99, $7.6946
08/29/2013, $6.65, 69767, $6.69, $6.71, $6.56
08/13/2013, $6.6, 112764, $6.51, $6.6299, $6.36
07/26/2013, $6.36, 75662, $6.4, $6.4, $6.2
07/10/2013, $5.74, 126058, $5.86, $5.86, $5.73
06/21/2013, $5.8, 190671, $6.24, $6.24, $5.63
06/05/2013, $7.15, 69907, $7.21, $7.31, $7.05
05/17/2013, $7.41, 58176, $7.39, $7.49, $7.39
05/01/2013, $7.74, 54667, $7.83, $7.92, $7.7
04/15/2013, $7.35, 146045, $7.71, $7.78, $7.3299
03/27/2013, $8.58, 13787, $8.57, $8.61, $8.53
03/11/2013, $8.96, 87108, $8.93, $9.0629, $8.86
02/21/2013, $7.62, 156307, $7.65, $7.67, $7.37
02/04/2013, $8.67, 60096, $8.66, $8.73, $8.65
01/16/2013, $8.6, 167475, $8.46, $8.65, $8.22
12/28/2012, $9.34, 56547, $9.28, $9.46, $9.28
12/11/2012, $9.9, 36944, $9.84, $10.08, $9.8
11/23/2012, $11.27, 26008, $11.09, $11.28, $11.08
11/06/2012, $12.2, 187919, $11.96, $12.58, $11.94
10/17/2012, $11.68, 85339, $11.44, $11.7, $11.23
10/01/2012, $11.45, 115208, $10.99, $11.47, $10.9
09/13/2012, $11.78, 276579, $11.39, $11.83, $11.32
08/27/2012, $10.49, 43880, $10.61, $10.6399, $10.46
08/09/2012, $9.685, 156958, $8.86, $9.9, $8.86
07/24/2012, $8.76, 76297, $8.75, $8.87, $8.63
07/06/2012, $8.87, 154325, $8.78, $9.04, $8.7
06/19/2012, $9.45, 84911, $9.41, $9.66, $9.24
06/01/2012, $9.53, 140428, $9.99, $9.99, $9.39
05/15/2012, $10.84, 102999, $11.15, $11.24, $10.81
04/27/2012, $13.87, 125620, $13.97, $14, $13.8
04/11/2012, $13.1, 198563, $12.47, $13.15, $12.38
03/23/2012, $12.02, 102850, $11.6, $12.02, $11.6
03/07/2012, $11.28, 109578, $11.34, $11.35, $11.12
02/17/2012, $10.71, 97738, $10.49, $10.78, $10.44
02/01/2012, $10.46, 216713, $9.83, $10.66, $9.7
01/13/2012, $8.65, 92211, $8.9, $8.96, $8.59
12/27/2011, $8.07, 62381, $7.9, $8.07, $7.81
12/08/2011, $7.56, 128886, $7.91, $8.05, $7.5
11/21/2011, $7.91, 192966, $8.32, $8.32, $7.81
11/03/2011, $10.2, 181687, $10.1, $10.2, $9.82
10/18/2011, $9.15, 92344, $8.79, $9.29, $8.6
09/30/2011, $8.03, 168101, $8.36, $8.56, $7.95
09/14/2011, $9.4, 76499, $9.22, $9.56, $8.96
08/26/2011, $9.08, 74119, $8.79, $9.2, $8.64
08/10/2011, $8.84, 240151, $9.09, $9.23, $8.5
07/25/2011, $11.88, 86775, $11.8, $12.01, $11.731
07/07/2011, $12.7, 159445, $12.75, $12.96, $12.62
06/20/2011, $11.59, 217690, $11.76, $11.85, $11.23
06/02/2011, $14.52, 173008, $14.81, $14.91, $14.16
05/16/2011, $12.83, 192701, $13, $13.26, $12.68
04/28/2011, $14.61, 250904, $14.31, $14.63, $14.2
04/11/2011, $15.05, 184878, $15.44, $15.47, $14.88
03/24/2011, $13.89, 109753, $14.16, $14.16, $13.82
03/08/2011, $15.02, 463170, $15.04, $15.36, $14.8
02/17/2011, $15.18, 363738, $15, $15.37, $14.94
02/01/2011, $13.39, 1187301, $12.13, $13.46, $12.13
01/20/2011, $14.47, 581793, $14.38, $14.54, $13.77